# From https://refractiveindex.info/
# REFERENCES:M. R. Querry. Optical constants, <a href="https://apps.dtic.mil/sti/citations/ADA158623"><i>Contractor Report</i> CRDC-CR-85034 (1985)</a>
# COMMENTS:70% Cu, 30% Zn.
#
# wavelength(nm) eta
220.0 1.179
230.0 1.227
240.0 1.271
250.0 1.301
260.0 1.315
270.0 1.323
280.0 1.336
290.0 1.358
300.0 1.388
310.0 1.419
320.0 1.446
330.0 1.473
340.0 1.494
350.0 1.504
360.0 1.503
370.0 1.497
380.0 1.487
390.0 1.471
400.0 1.445
410.0 1.405
420.0 1.35
430.0 1.278
440.0 1.191
450.0 1.094
460.0 0.994
470.0 0.9
480.0 0.816
490.0 0.745
500.0 0.686
510.0 0.639
520.0 0.602
530.0 0.573
540.0 0.549
550.0 0.527
560.0 0.505
570.0 0.484
580.0 0.468
590.0 0.46
600.0 0.45
610.0 0.452
620.0 0.449
630.0 0.445
640.0 0.444
650.0 0.444
660.0 0.445
670.0 0.444
680.0 0.444
690.0 0.445
700.0 0.446
710.0 0.448
720.0 0.45
730.0 0.452
740.0 0.455
750.0 0.457
760.0 0.458
770.0 0.46
780.0 0.464
790.0 0.469
800.0 0.473
810.0 0.478
820.0 0.481
830.0 0.483
840.0 0.486
850.0 0.49
860.0 0.494
870.0 0.5
880.0 0.507
890.0 0.515
900.0 0.523
910.0 0.531
920.0 0.538
930.0 0.546
940.0 0.555
950.0 0.563
960.0 0.572
970.0 0.58
980.0 0.588
990.0 0.596
1000.0 0.603
1010.0 0.61
1020.0 0.616
1030.0 0.622
1040.0 0.628
1050.0 0.635
1060.0 0.642
1070.0 0.65
1080.0 0.658
1090.0 0.667
1100.0 0.675
1110.0 0.684
1120.0 0.693
1130.0 0.702
1140.0 0.711
1150.0 0.718
1160.0 0.726
1170.0 0.733
1180.0 0.743
1190.0 0.752
1200.0 0.761
1210.0 0.766
1220.0 0.77
1230.0 0.775
1240.0 0.783
1250.0 0.793
1260.0 0.803
1270.0 0.813
1280.0 0.823
1290.0 0.834
1300.0 0.844
1310.0 0.856
1320.0 0.867
1330.0 0.878
1340.0 0.888
1350.0 0.898
1360.0 0.908
1370.0 0.917
1380.0 0.926
1390.0 0.934
1400.0 0.942
1410.0 0.95
1420.0 0.958
1430.0 0.968
1440.0 0.978
1450.0 0.989
1460.0 1.001
1470.0 1.013
1480.0 1.024
1490.0 1.034
1500.0 1.044
1510.0 1.055
1520.0 1.067
1530.0 1.079
1540.0 1.091
1550.0 1.102
1560.0 1.113
1570.0 1.124
1580.0 1.135
1590.0 1.146
1600.0 1.158
1610.0 1.171
1620.0 1.184
1630.0 1.199
1640.0 1.214
1650.0 1.228
1660.0 1.24
1670.0 1.252
1680.0 1.264
1690.0 1.276
1700.0 1.288
1710.0 1.302
1720.0 1.315
1730.0 1.326
1740.0 1.335
1750.0 1.342
1760.0 1.35
1770.0 1.36
1780.0 1.372
1790.0 1.386
1800.0 1.398
1810.0 1.41
1830.0 1.437
1840.0 1.452
1850.0 1.468
1860.0 1.484
1870.0 1.5
1880.0 1.517
1890.0 1.532
1900.0 1.547
1910.0 1.562
1920.0 1.576
1930.0 1.591
1940.0 1.604
1950.0 1.618
1960.0 1.633
1970.0 1.654
1980.0 1.676
1990.0 1.696
2000.0 1.711
2009.9999999999998 1.723
2020.0 1.733
2029.9999999999998 1.748
2040.0 1.767
2050.0 1.789
2060.0 1.809
2070.0 1.826
2080.0 1.842
2090.0 1.861
2100.0 1.878
2110.0 1.894
2120.0 1.91
2130.0 1.924
2140.0 1.938
2150.0 1.95
2160.0 1.967
2170.0 1.983
2180.0 1.999
2190.0 2.014
2200.0 2.028
2210.0 2.042
2220.0 2.057
2230.0 2.073
2240.0 2.093
2250.0 2.11
2260.0 2.127
2270.0 2.144
2280.0 2.159
2290.0 2.171
2300.0 2.182
2310.0 2.193
2320.0 2.201
2330.0 2.211
2340.0 2.22
2350.0 2.232
2360.0 2.248
2370.0 2.266
2380.0 2.287
2390.0 2.306
2400.0 2.324
2410.0 2.337
2420.0 2.349
2430.0 2.363
2440.0 2.377
2450.0 2.391
2460.0 2.403
2470.0 2.415
2480.0 2.427
2490.0 2.443
2500.0 2.456
2506.3 2.467
2512.6 2.476
2518.9 2.487
2525.3 2.497
2531.6 2.507
2538.1 2.517
2544.5 2.527
2551.0 2.537
2557.5 2.546
2564.1 2.556
2570.7 2.565
2577.3 2.574
2584.0 2.582
2590.7 2.591
2597.4 2.6
2604.2000000000003 2.609
2611.0 2.618
2617.7999999999997 2.627
2624.7 2.636
2631.6000000000004 2.645
2638.5 2.654
2645.5 2.663
2652.5 2.672
2659.6000000000004 2.681
2666.7000000000003 2.69
2673.8 2.699
2681.0 2.709
2688.2000000000003 2.718
2695.3999999999996 2.728
2702.7000000000003 2.738
2710.0 2.748
2717.4 2.758
2724.8 2.769
2732.2000000000003 2.78
2739.7 2.79
2747.3 2.802
2754.7999999999997 2.813
2762.4 2.826
2770.1 2.837
2777.8 2.849
2785.5 2.861
2793.2999999999997 2.874
2801.1 2.886
2809.0 2.898
2816.9 2.911
2824.9 2.924
2832.9 2.937
2840.9 2.95
2849.0 2.963
2857.1 2.977
2865.3 2.99
2873.6000000000004 3.004
2881.8 3.018
2890.2000000000003 3.033
2898.6 3.047
2907.0 3.062
2915.5 3.077
2924.0 3.091
2932.6 3.105
2941.2 3.119
2949.9 3.134
2958.6 3.149
2967.4 3.165
2976.2 3.18
2985.1 3.196
2994.0 3.211
3003.0 3.227
3012.0 3.242
3021.1 3.258
3030.3 3.274
3039.5 3.291
3048.8 3.307
3058.1 3.323
3067.5 3.339
3076.9 3.356
3086.3999999999996 3.373
3096.0 3.39
3105.6 3.408
3115.3 3.426
3125.0 3.444
3134.7999999999997 3.462
3144.7 3.48
3154.6 3.498
3164.6 3.516
3174.6 3.535
3184.7 3.553
3194.9 3.571
3205.1 3.591
3215.3999999999996 3.61
3225.8 3.63
3236.2000000000003 3.65
3246.7999999999997 3.67
3257.2999999999997 3.69
3268.0 3.71
3278.7000000000003 3.73
3289.5 3.75
3300.3 3.77
3311.3 3.791
3322.2999999999997 3.812
3333.2999999999997 3.832
3344.5 3.852
3355.7000000000003 3.873
3367.0 3.893
3378.4 3.915
3389.8 3.935
3401.4 3.957
3413.0 3.978
3424.7000000000003 3.999
3436.4 4.02
3448.3 4.041
3460.2 4.062
3472.2 4.083
3484.3 4.105
3496.5 4.127
3508.7999999999997 4.149
3521.1 4.171
3533.6 4.194
3546.1 4.216
3558.7 4.238
3571.4 4.261
3584.2000000000003 4.285
3597.1000000000004 4.31
3610.1 4.335
3623.2000000000003 4.359
3636.4 4.383
3649.6 4.409
3663.0 4.434
3676.5 4.461
3690.0 4.487
3703.7 4.513
3717.5 4.538
3731.3 4.564
3745.2999999999997 4.571
3759.3999999999996 4.618
3773.6 4.646
3787.9 4.672
3802.2999999999997 4.7
3816.8 4.728
3831.4 4.756
3846.2000000000003 4.785
3861.0 4.813
3876.0 4.841
3891.1 4.87
3906.2999999999997 4.898
3921.6000000000004 4.928
3937.0 4.957
3952.6 4.987
3968.3 5.017
3984.1000000000004 5.047
4000.0 5.077
4016.1 5.107
4032.3 5.137
4048.6000000000004 5.169
4065.0000000000005 5.2
4081.6 5.23
4098.4 5.26
4115.2 5.292
4132.2 5.325
4149.4 5.359
4166.7 5.392
4184.1 5.425
4201.7 5.459
4219.400000000001 5.494
4237.3 5.531
4255.3 5.568
4273.5 5.607
4291.8 5.646
4310.3 5.687
4329.0 5.726
4347.8 5.766
4366.799999999999 5.806
4386.0 5.847
4405.3 5.887
4424.8 5.928
4444.4 5.969
4464.299999999999 6.012
4484.3 6.053
4504.5 6.097
4524.9 6.139
4545.5 6.183
4566.2 6.226
4587.2 6.271
4608.3 6.315
4629.6 6.359
4651.2 6.402
4672.900000000001 6.446
4694.8 6.491
4717.0 6.534
4739.3 6.579
4761.9 6.624
4784.7 6.671
4807.7 6.717
4830.9 6.762
4854.4 6.808
4878.0 6.857
4902.0 6.906
4926.1 6.954
4950.5 7.002
4975.1 7.049
5000.0 7.097
5025.1 7.146
5050.5 7.195
5076.1 7.245
5102.0 7.296
5128.2 7.348
5154.6 7.4
5181.3 7.453
5208.3 7.506
5235.599999999999 7.56
5263.200000000001 7.615
5291.0 7.671
5319.099999999999 7.727
5347.6 7.784
5376.299999999999 7.841
5405.400000000001 7.899
5434.8 7.958
5464.5 8.015
5494.5 8.072
5524.9 8.129
5555.6 8.19
5586.599999999999 8.252
5618.0 8.317
5649.7 8.381
5681.8 8.445
5714.299999999999 8.507
5747.099999999999 8.569
5780.3 8.633
5814.0 8.698
5848.0 8.765
5882.4 8.834
5917.2 8.903
5952.4 8.973
5988.0 9.041
6024.099999999999 9.111
6060.6 9.183
6097.6 9.258
6135.0 9.334
6172.799999999999 9.411
6211.2 9.492
6250.0 9.573
6289.3 9.656
6329.1 9.738
6369.4 9.825
6410.3 9.916
6451.6 10.009
6493.5 10.103
6535.9 10.199
6578.9 10.3
6622.5 10.403
6666.7 10.511
6711.400000000001 10.62
6756.8 10.728
6802.7 10.836
6849.3 10.946
6896.6 11.06
6944.4 11.174
6993.0 11.291
7042.3 11.407
7092.2 11.527
7142.9 11.644
7194.200000000001 11.762
7246.400000000001 11.88
7299.299999999999 11.998
7352.9 12.118
7407.4 12.235
7462.7 12.352
7518.799999999999 12.468
7575.8 12.586
7633.6 12.705
7692.3 12.821
7751.9 12.936
7812.5 13.047
7874.0 13.158
7936.5 13.266
8000.0 13.375
8064.500000000001 13.484
8130.1 13.597
8196.7 13.712
8264.5 13.825
8333.3 13.938
8403.4 14.049
8474.6 14.164
8547.0 14.28
8620.699999999999 14.403
8695.7 14.526
8771.9 14.652
8849.6 14.912
8928.599999999999 15.051
9009.0 15.051
9090.9 15.194
9174.300000000001 15.343
9259.3 15.493
9345.800000000001 15.649
9434.0 15.806
9523.8 15.971
9615.4 16.137
9708.7 16.312
9803.9 16.493
9901.0 16.684
10000.0 16.878
10101.0 17.076
10204.1 17.276
10309.300000000001 17.486
10416.7 17.706
10526.300000000001 17.932
10638.3 18.162
10752.7 18.397
10869.6 18.636
10989.0 18.88
11111.1 19.13
11236.0 19.385
11363.6 19.646
11494.300000000001 19.912
11627.9 20.182
11764.699999999999 20.453
11904.8 20.726
12048.199999999999 21.006
12195.1 21.301
12345.7 21.606
12500.0 21.916
12658.2 22.227
12820.5 22.542
12987.0 22.867
13157.9 23.2
13333.3 23.537
13513.5 23.884
13698.6 24.238
13888.9 24.608
14084.5 24.982
14285.7 25.367
14492.0 25.759
14705.9 26.165
14925.4 26.585
15151.5 27.018
15384.6 27.464
15625.0 27.922
15873.0 28.385
16129.000000000002 28.857
16393.4 29.342
16666.699999999997 29.848
16949.2 30.372
17241.399999999998 30.915
17543.9 31.475
17857.1 32.043
18181.8 32.622
18518.5 33.212
18867.899999999998 33.83
19230.8 34.469
19607.8 35.134
20000.0 35.815
20408.2 36.537
20833.300000000003 37.298
21276.6 38.101
21739.100000000002 38.921
22222.2 39.76
22727.3 40.63
23255.8 41.557
23809.5 42.559
24390.2 43.616
25000.0 44.72
25641.0 45.879
26315.8 47.131
27027.0 48.511
27777.8 50.022
28571.4 51.675
29411.8 53.449
30303.0 55.37
31250.0 57.475
32258.1 59.821
33333.3 62.41
34482.799999999996 65.251
35714.3 68.393
37037.0 71.895
38461.5 75.795
40000.0 80.139
41666.7 84.991
43478.299999999996 90.419
45454.5 96.436
47619.0 103.106
50000.0 110.527
52631.6 118.974
55555.6 128.885
