# From https://refractiveindex.info/
# REFERENCES:M. R. Querry. Optical constants, <a href="https://apps.dtic.mil/sti/citations/ADA158623"><i>Contractor Report</i> CRDC-CR-85034 (1985)</a>
# COMMENTS:70% Cu, 30% Zn.
#
# wavelength(nm) k
220.0 1.381
230.0 1.442
240.0 1.482
250.0 1.512
260.0 1.544
270.0 1.586
280.0 1.637
290.0 1.688
300.0 1.731
310.0 1.764
320.0 1.789
330.0 1.807
340.0 1.815
350.0 1.815
360.0 1.815
370.0 1.818
380.0 1.818
390.0 1.813
400.0 1.805
410.0 1.794
420.0 1.786
430.0 1.784
440.0 1.797
450.0 1.829
460.0 1.883
470.0 1.957
480.0 2.046
490.0 2.145
500.0 2.25
510.0 2.358
520.0 2.464
530.0 2.568
540.0 2.668
550.0 2.765
560.0 2.86
570.0 2.958
580.0 3.059
590.0 3.159
600.0 3.253
610.0 3.345
620.0 3.434
630.0 3.522
640.0 3.609
650.0 3.695
660.0 3.778
670.0 3.86
680.0 3.943
690.0 4.025
700.0 4.106
710.0 4.186
720.0 4.266
730.0 4.346
740.0 4.424
750.0 4.501
760.0 4.579
770.0 4.657
780.0 4.737
790.0 4.814
800.0 4.89
810.0 4.965
820.0 5.039
830.0 5.115
840.0 5.192
850.0 5.269
860.0 5.346
870.0 5.423
880.0 5.5
890.0 5.575
900.0 5.65
910.0 5.724
920.0 5.797
930.0 5.87
940.0 5.944
950.0 6.016
960.0 6.087
970.0 6.158
980.0 6.228
990.0 6.298
1000.0 6.367
1010.0 6.437
1020.0 6.507
1030.0 6.578
1040.0 6.649
1050.0 6.72
1060.0 6.792
1070.0 6.862
1080.0 6.933
1090.0 7.004
1100.0 7.074
1110.0 7.144
1120.0 7.214
1130.0 7.283
1140.0 7.351
1150.0 7.419
1160.0 7.487
1170.0 7.557
1180.0 7.627
1190.0 7.694
1200.0 7.76
1210.0 7.826
1220.0 7.895
1230.0 7.967
1240.0 8.04
1250.0 8.112
1260.0 8.182
1270.0 8.251
1280.0 8.32
1290.0 8.39
1300.0 8.459
1310.0 8.528
1320.0 8.595
1330.0 8.662
1340.0 8.728
1350.0 8.795
1360.0 8.861
1370.0 8.928
1380.0 8.994
1390.0 9.061
1400.0 9.128
1410.0 9.196
1420.0 9.265
1430.0 9.335
1440.0 9.405
1450.0 9.474
1460.0 9.542
1470.0 9.609
1480.0 9.675
1490.0 9.742
1500.0 9.81
1510.0 9.878
1520.0 9.946
1530.0 10.014
1540.0 10.08
1550.0 10.146
1560.0 10.213
1570.0 10.28
1580.0 10.347
1590.0 10.415
1600.0 10.483
1610.0 10.552
1620.0 10.619
1630.0 10.686
1640.0 10.751
1650.0 10.814
1660.0 10.879
1670.0 10.943
1680.0 11.008
1690.0 11.073
1700.0 11.138
1710.0 11.203
1720.0 11.266
1730.0 11.328
1740.0 11.39
1750.0 11.456
1760.0 11.523
1770.0 11.593
1780.0 11.662
1790.0 11.73
1800.0 11.796
1810.0 11.863
1830.0 12.0
1840.0 12.068
1850.0 12.135
1860.0 12.202
1870.0 12.267
1880.0 12.332
1890.0 12.396
1900.0 12.459
1910.0 12.524
1920.0 12.588
1930.0 12.654
1940.0 12.718
1950.0 12.786
1960.0 12.855
1970.0 12.922
1980.0 12.986
1990.0 13.044
2000.0 13.101
2009.9999999999998 13.161
2020.0 13.226
2029.9999999999998 13.295
2040.0 13.363
2050.0 13.426
2060.0 13.485
2070.0 13.545
2080.0 13.607
2090.0 13.666
2100.0 13.725
2110.0 13.784
2120.0 13.842
2130.0 13.902
2140.0 13.961
2150.0 14.023
2160.0 14.084
2170.0 14.146
2180.0 14.206
2190.0 14.265
2200.0 14.324
2210.0 14.385
2220.0 14.447
2230.0 14.511
2240.0 14.57
2250.0 14.628
2260.0 14.686
2270.0 14.743
2280.0 14.797
2290.0 14.853
2300.0 14.909
2310.0 14.966
2320.0 15.026
2330.0 15.087
2340.0 15.151
2350.0 15.217
2360.0 15.283
2370.0 15.35
2380.0 15.411
2390.0 15.466
2400.0 15.522
2410.0 15.578
2420.0 15.636
2430.0 15.697
2440.0 15.755
2450.0 15.813
2460.0 15.872
2470.0 15.932
2480.0 15.995
2490.0 16.055
2500.0 16.114
2506.3 16.153
2512.6 16.192
2518.9 16.23
2525.3 16.268
2531.6 16.306
2538.1 16.343
2544.5 16.381
2551.0 16.419
2557.5 16.457
2564.1 16.495
2570.7 16.533
2577.3 16.571
2584.0 16.61
2590.7 16.649
2597.4 16.689
2604.2000000000003 16.729
2611.0 16.77
2617.7999999999997 16.81
2624.7 16.851
2631.6000000000004 16.892
2638.5 16.934
2645.5 16.975
2652.5 17.017
2659.6000000000004 17.059
2666.7000000000003 17.103
2673.8 17.146
2681.0 17.19
2688.2000000000003 17.234
2695.3999999999996 17.278
2702.7000000000003 17.323
2710.0 17.368
2717.4 17.413
2724.8 17.458
2732.2000000000003 17.504
2739.7 17.551
2747.3 17.597
2754.7999999999997 17.644
2762.4 17.691
2770.1 17.737
2777.8 17.784
2785.5 17.832
2793.2999999999997 17.879
2801.1 17.927
2809.0 17.974
2816.9 18.023
2824.9 18.072
2832.9 18.12
2840.9 18.169
2849.0 18.218
2857.1 18.268
2865.3 18.318
2873.6000000000004 18.368
2881.8 18.418
2890.2000000000003 18.468
2898.6 18.518
2907.0 18.568
2915.5 18.619
2924.0 18.669
2932.6 18.72
2941.2 18.772
2949.9 18.824
2958.6 18.877
2967.4 18.929
2976.2 18.981
2985.1 19.034
2994.0 19.087
3003.0 19.14
3012.0 19.193
3021.1 19.248
3030.3 19.302
3039.5 19.356
3048.8 19.41
3058.1 19.466
3067.5 19.521
3076.9 19.517
3086.3999999999996 19.633
3096.0 19.69
3105.6 19.746
3115.3 19.803
3125.0 19.86
3134.7999999999997 19.917
3144.7 19.974
3154.6 20.032
3164.6 20.09
3174.6 20.148
3184.7 20.207
3194.9 20.266
3205.1 20.326
3215.3999999999996 20.386
3225.8 20.445
3236.2000000000003 20.505
3246.7999999999997 20.565
3257.2999999999997 20.625
3268.0 20.685
3278.7000000000003 20.746
3289.5 20.808
3300.3 20.87
3311.3 20.931
3322.2999999999997 20.993
3333.2999999999997 21.055
3344.5 21.118
3355.7000000000003 21.181
3367.0 21.244
3378.4 21.308
3389.8 21.372
3401.4 21.436
3413.0 21.501
3424.7000000000003 21.566
3436.4 21.631
3448.3 21.698
3460.2 21.765
3472.2 21.832
3484.3 21.9
3496.5 21.968
3508.7999999999997 22.037
3521.1 22.106
3533.6 22.176
3546.1 22.246
3558.7 22.317
3571.4 22.39
3584.2000000000003 22.462
3597.1000000000004 22.534
3610.1 22.606
3623.2000000000003 22.679
3636.4 22.753
3649.6 22.828
3663.0 22.902
3676.5 22.977
3690.0 23.051
3703.7 23.126
3717.5 23.202
3731.3 23.279
3745.2999999999997 23.356
3759.3999999999996 23.433
3773.6 23.511
3787.9 23.589
3802.2999999999997 23.668
3816.8 23.748
3831.4 23.827
3846.2000000000003 23.907
3861.0 23.988
3876.0 24.069
3891.1 24.151
3906.2999999999997 24.233
3921.6000000000004 24.316
3937.0 24.4
3952.6 24.484
3968.3 24.568
3984.1000000000004 24.653
4000.0 24.739
4016.1 24.825
4032.3 24.913
4048.6000000000004 25.001
4065.0000000000005 25.089
4081.6 25.178
4098.4 25.269
4115.2 25.361
4132.2 25.454
4149.4 25.547
4166.7 25.64
4184.1 25.735
4201.7 25.831
4219.400000000001 25.928
4237.3 26.026
4255.3 26.124
4273.5 26.223
4291.8 26.322
4310.3 26.42
4329.0 26.518
4347.8 26.616
4366.799999999999 26.716
4386.0 26.815
4405.3 26.916
4424.8 27.017
4444.4 27.12
4464.299999999999 27.222
4484.3 27.325
4504.5 27.428
4524.9 27.533
4545.5 27.637
4566.2 27.742
4587.2 27.848
4608.3 27.954
4629.6 28.06
4651.2 28.168
4672.900000000001 28.276
4694.8 28.385
4717.0 28.496
4739.3 28.608
4761.9 28.721
4784.7 28.834
4807.7 28.948
4830.9 29.064
4854.4 29.181
4878.0 29.299
4902.0 29.417
4926.1 29.535
4950.5 29.654
4975.1 29.775
5000.0 29.898
5025.1 30.022
5050.5 30.148
5076.1 30.274
5102.0 30.402
5128.2 30.532
5154.6 30.662
5181.3 30.793
5208.3 30.926
5235.599999999999 31.06
5263.200000000001 31.195
5291.0 31.331
5319.099999999999 31.468
5347.6 31.606
5376.299999999999 31.745
5405.400000000001 31.885
5434.8 32.026
5464.5 32.168
5494.5 32.313
5524.9 32.461
5555.6 32.612
5586.599999999999 32.763
5618.0 32.914
5649.7 33.065
5681.8 33.217
5714.299999999999 33.371
5747.099999999999 33.528
5780.3 33.688
5814.0 33.85
5848.0 34.015
5882.4 34.181
5917.2 34.347
5952.4 34.514
5988.0 34.685
6024.099999999999 34.859
6060.6 35.037
6097.6 35.216
6135.0 35.397
6172.799999999999 35.581
6211.2 35.766
6250.0 35.952
6289.3 36.14
6329.1 36.332
6369.4 36.528
6410.3 36.724
6451.6 36.921
6493.5 37.12
6535.9 37.321
6578.9 37.524
6622.5 37.729
6666.7 37.931
6711.400000000001 38.133
6756.8 38.334
6802.7 38.538
6849.3 38.744
6896.6 38.951
6944.4 39.159
6993.0 39.365
7042.3 39.573
7092.2 39.78
7142.9 39.989
7194.200000000001 40.197
7246.400000000001 40.409
7299.299999999999 40.621
7352.9 40.834
7407.4 41.047
7462.7 41.264
7518.799999999999 41.484
7575.8 41.707
7633.6 41.93
7692.3 42.154
7751.9 42.38
7812.5 42.611
7874.0 42.847
7936.5 43.088
8000.0 43.337
8064.500000000001 43.592
8130.1 43.852
8196.7 44.116
8264.5 44.383
8333.3 44.657
8403.4 44.939
8474.6 45.229
8547.0 45.527
8620.699999999999 45.83
8695.7 46.14
8771.9 46.456
8849.6 46.78
8928.599999999999 47.114
9009.0 47.453
9090.9 47.798
9174.300000000001 48.147
9259.3 48.504
9345.800000000001 48.865
9434.0 49.236
9523.8 49.611
9615.4 49.997
9708.7 50.389
9803.9 50.79
9901.0 51.193
10000.0 51.601
10101.0 52.013
10204.1 52.438
10309.300000000001 52.87
10416.7 53.306
10526.300000000001 53.746
10638.3 54.19
10752.7 54.64
10869.6 55.097
10989.0 55.56
11111.1 56.031
11236.0 56.509
11363.6 56.993
11494.300000000001 57.485
11627.9 57.982
11764.699999999999 58.489
11904.8 59.009
12048.199999999999 59.547
12195.1 60.094
12345.7 60.647
12500.0 61.204
12658.2 61.773
12820.5 62.357
12987.0 62.955
13157.9 63.563
13333.3 64.187
13513.5 64.825
13698.6 65.482
13888.9 66.149
14084.5 66.833
14285.7 67.531
14492.0 68.251
14705.9 68.989
14925.4 69.745
15151.5 70.518
15384.6 71.308
15625.0 72.113
15873.0 72.939
16129.000000000002 73.791
16393.4 74.674
16666.699999999997 75.584
16949.2 76.519
17241.399999999998 77.478
17543.9 78.457
17857.1 79.466
18181.8 80.507
18518.5 81.598
18867.899999999998 82.726
19230.8 83.9
19607.8 85.11
20000.0 86.381
20408.2 87.705
20833.300000000003 89.081
21276.6 90.491
21739.100000000002 91.95
22222.2 93.481
22727.3 95.102
23255.8 96.82
23809.5 98.608
24390.2 100.47
25000.0 102.423
25641.0 104.502
26315.8 106.723
27027.0 109.066
27777.8 111.531
28571.4 114.093
29411.8 116.784
30303.0 119.629
31250.0 122.654
32258.1 125.831
33333.3 129.145
34482.799999999996 132.621
35714.3 136.282
37037.0 140.107
38461.5 144.087
40000.0 148.216
41666.7 152.486
43478.299999999996 156.828
45454.5 161.229
47619.0 165.71
50000.0 170.24
52631.6 175.042
55555.6 179.3
